{
  "resourceType": "CarePlan",
  "id": "f202",
  "text": {
    "status": "generated",
    "div": "<div xmlns=\"http://www.w3.org/1999/xhtml\"><p><b>Generated Narrative</b></p><p><b>status</b>: active</p><p><b>intent</b>: plan</p><p><b>subject</b>: <a>Roel. Generated Summary: BSN: 123456789 (OFFICIAL), BSN: 123456789 (OFFICIAL); active; Roel(OFFICIAL); Phone: +31612345678, Phone: +31201234567; gender: male; birthDate: 1960-03-13; <span>Legally married</span>; </a></p><p><b>careTeam</b>: <a> </a></p><blockquote><h3>Participants</h3><table><tr><td>-</td><td><b>Role</b></td><td><b>Member</b></td></tr><tr><td>*</td><td><span>Treated with</span></td><td><a>Dokter Bronsig. Generated Summary: UZI-nummer: 12345678901 (OFFICIAL); active; Dokter Bronsig(OFFICIAL); Phone: +31715269111; gender: male; birthDate: 1956-12-24</a></td></tr></table></blockquote><p><b>addresses</b>: <a>Roel's head-neck tumor. Generated Summary: <span>Resolved</span>; <span>Confirmed</span>; <span>Encounter Diagnosis</span>; <span>Severe</span>; <span>Malignant neoplastic disease</span>; <span>Entire head and neck</span>; 52 years; 54 years; recordedDate: 2012-12-01</a></p><p><b>goal</b>: <a> </a></p><blockquote><p><b>lifecycleStatus</b>: active</p><p><b>description</b>: <span>Elimination of the spenoid bone tumor</span></p><p><b>subject</b>: <a>Roel. Generated Summary: BSN: 123456789 (OFFICIAL), BSN: 123456789 (OFFICIAL); active; Roel(OFFICIAL); Phone: +31612345678, Phone: +31201234567; gender: male; birthDate: 1960-03-13; <span>Legally married</span>; </a></p></blockquote><blockquote><p><b>activity</b></p><p><b>outcomeReference</b>: <a>Roel's Chemotherapy. Generated Summary: instantiatesCanonical: http://example.org/fhir/PlanDefinition/KDN5; status: completed; <span>Chemotherapy</span>; performed: 28 Jan. 2013, 11:31:00 pm --&gt; 29 Jan. 2013, 12:27:00 am; <span>DiagnosticReport/f201</span>; <span>Sphenoid bone</span>; Eerste neo-adjuvante TPF-kuur bij groot proces in sphenoid met intracraniale uitbreiding.</a></p><h3>Details</h3><table><tr><td>-</td><td><b>Kind</b></td><td><b>Code</b></td><td><b>Status</b></td><td><b>DoNotPerform</b></td><td><b>Product[x]</b></td></tr><tr><td>*</td><td>ServiceRequest</td><td><span>Chemotherapy</span></td><td>in-progress</td><td>false</td><td><a> </a><blockquote><p><b>code</b>: <span>TPF</span></p><blockquote><p><b>ingredient</b></p><p><b>item</b>: <a>#doce</a></p></blockquote><blockquote><p><b>ingredient</b></p><p><b>item</b>: <a>#cisp</a></p></blockquote><blockquote><p><b>ingredient</b></p><p><b>item</b>: <a>#fluo</a></p></blockquote></blockquote></td></tr></table></blockquote></div>"
  },
  "contained": [
    {
      "resourceType": "Medication",
      "id": "doce",
      "code": {
        "coding": [
          {
            "system": "http://snomed.info/sct",
            "code": "108806006",
            "display": "Docetaxel"
          }
        ]
      }
    },
    {
      "resourceType": "Medication",
      "id": "cisp",
      "code": {
        "coding": [
          {
            "system": "http://snomed.info/sct",
            "code": "57066004",
            "display": "Cisplatin"
          }
        ]
      }
    },
    {
      "resourceType": "Medication",
      "id": "fluo",
      "code": {
        "coding": [
          {
            "system": "http://snomed.info/sct",
            "code": "3127006",
            "display": "Fluorouracil"
          }
        ]
      }
    },
    {
      "resourceType": "Medication",
      "id": "tpf",
      "code": {
        "text": "TPF"
      },
      "ingredient": [
        {
          "itemReference": {
            "reference": "#doce"
          }
        },
        {
          "itemReference": {
            "reference": "#cisp"
          }
        },
        {
          "itemReference": {
            "reference": "#fluo"
          }
        }
      ]
    },
    {
      "resourceType": "CareTeam",
      "id": "careteam",
      "participant": [
        {
          "role": [
            {
              "coding": [
                {
                  "system": "http://snomed.info/sct",
                  "code": "28995006",
                  "display": "Treated with"
                }
              ]
            }
          ],
          "member": {
            "reference": "Practitioner/f201",
            "display": "Dokter Bronsig"
          }
        }
      ]
    },
    {
      "resourceType": "Goal",
      "id": "goal",
      "lifecycleStatus": "active",
      "description": {
        "text": "Elimination of the spenoid bone tumor"
      },
      "subject": {
        "reference": "Patient/f201",
        "display": "Roel"
      }
    }
  ],
  "status": "active",
  "intent": "plan",
  "subject": {
    "reference": "Patient/f201",
    "display": "Roel"
  },
  "careTeam": [
    {
      "reference": "#careteam"
    }
  ],
  "addresses": [
    {
      "reference": "Condition/f202",
      "display": "Roel's head-neck tumor"
    }
  ],
  "goal": [
    {
      "reference": "#goal"
    }
  ],
  "activity": [
    {
      "outcomeReference": [
        {
          "reference": "Procedure/f201",
          "display": "Roel's Chemotherapy"
        }
      ],
      "detail": {
        "kind": "ServiceRequest",
        "code": {
          "coding": [
            {
              "system": "http://snomed.info/sct",
              "code": "367336001",
              "display": "Chemotherapy"
            }
          ]
        },
        "status": "in-progress",
        "doNotPerform": false,
        "productReference": {
          "reference": "#tpf"
        }
      }
    }
  ]
}